STUDYID,DOMAIN,USUBJID,AESEQ,AETERM,AESTDTC,AEENDTC,AESEV,AEREL,AEOUT
HTN-CDM-001,AE,HTN-CDM-001-SUBJ-001,1,Headache,2026-01-12,2026-01-14,Mild,Not Related,Resolved
HTN-CDM-001,AE,HTN-CDM-001-SUBJ-003,2,Dizziness,2026-01-20,2026-01-22,Moderate,Possibly Related,Resolved
HTN-CDM-001,AE,HTN-CDM-001-SUBJ-005,3,Nausea,2026-01-25,2026-01-27,Mild,Possibly Related,Resolved
HTN-CDM-001,AE,HTN-CDM-001-SUBJ-006,4,Headache,2026-01-21,2026-01-23,Mild,Not Related,Resolved
HTN-CDM-001,AE,HTN-CDM-001-SUBJ-009,5,Fatigue,2026-01-29,,Moderate,Possibly Related,Ongoing
